SpectraSuite Data File
++++++++++++++++++++++++++++++++++++
Date: Wed Feb 22 20:08:02 BRST 2023
User: Julio
Dark Spectrum Present: Yes
Reference Spectrum Present: Yes
Number of Sampled Component Spectra: 1
Spectrometers: USB2G45254
Integration Time (usec): 3000 (USB2G45254)
Spectra Averaged: 10 (USB2G45254)
Boxcar Smoothing: 0 (USB2G45254)
Correct for Electrical Dark: No (USB2G45254)
Strobe/Lamp Enabled: No (USB2G45254)
Correct for Detector Non-linearity: No (USB2G45254)
Correct for Stray Light: No (USB2G45254)
Number of Pixels in Processed Spectrum: 651
>>>>>Begin Processed Spectral Data<<<<<
350,00	-0,50
351,00	-1,22
352,00	-2,13
353,00	-2,62
354,00	-0,37
355,00	-0,57
356,00	-1,65
357,00	1,12
358,00	-1,90
359,00	-0,96
360,00	-1,73
361,00	-0,50
362,00	-2,28
363,00	-2,25
364,00	-1,36
365,00	-0,71
366,00	-1,04
367,00	-2,45
368,00	-0,68
369,00	-1,87
370,00	-0,27
371,00	-2,12
372,00	-1,38
373,00	0,34
374,00	0,71
375,00	-2,13
376,00	0,02
377,00	-1,32
378,00	-0,90
379,00	-1,40
380,00	-1,77
381,00	-0,04
382,00	0,63
383,00	-0,36
384,00	-1,09
385,00	-0,73
386,00	-0,39
387,00	0,33
388,00	0,89
389,00	-0,73
390,00	0,13
391,00	-1,22
392,00	-2,44
393,00	-1,47
394,00	-0,78
395,00	0,43
396,00	-0,64
397,00	-1,72
398,00	-2,71
399,00	-0,09
400,00	0,06
401,00	1,95
402,00	-2,69
403,00	-2,16
404,00	-0,23
405,00	-0,60
406,00	-1,35
407,00	-2,08
408,00	1,35
409,00	-1,41
410,00	-1,69
411,00	0,69
412,00	-1,15
413,00	1,95
414,00	0,32
415,00	-0,22
416,00	0,27
417,00	0,29
418,00	-0,15
419,00	-0,23
420,00	-1,39
421,00	-1,41
422,00	-1,28
423,00	0,32
424,00	-0,58
425,00	-0,97
426,00	-2,40
427,00	0,19
428,00	1,84
429,00	0,45
430,00	-0,07
431,00	-1,25
432,00	-1,61
433,00	-0,93
434,00	1,03
435,00	0,92
436,00	1,50
437,00	1,21
438,00	0,05
439,00	0,78
440,00	0,98
441,00	2,83
442,00	5,04
443,00	1,61
444,00	3,82
445,00	3,13
446,00	5,88
447,00	4,33
448,00	1,69
449,00	7,56
450,00	6,91
451,00	8,40
452,00	9,16
453,00	8,88
454,00	11,48
455,00	15,75
456,00	14,91
457,00	16,41
458,00	18,04
459,00	21,81
460,00	27,41
461,00	29,94
462,00	33,05
463,00	36,95
464,00	41,49
465,00	49,56
466,00	56,47
467,00	65,86
468,00	70,27
469,00	82,67
470,00	95,52
471,00	107,08
472,00	123,45
473,00	143,93
474,00	161,89
475,00	184,37
476,00	211,10
477,00	241,82
478,00	275,16
479,00	313,55
480,00	354,80
481,00	400,65
482,00	446,33
483,00	504,49
484,00	567,44
485,00	652,81
486,00	711,24
487,00	780,24
488,00	885,02
489,00	977,34
490,00	1075,90
491,00	1142,03
492,00	1236,74
493,00	1292,61
494,00	1409,91
495,00	1511,49
496,00	1574,37
497,00	1652,16
498,00	1703,93
499,00	1695,78
500,00	1747,80
501,00	1717,65
502,00	1707,63
503,00	1679,41
504,00	1658,21
505,00	1615,08
506,00	1529,81
507,00	1474,65
508,00	1396,43
509,00	1347,37
510,00	1287,41
511,00	1176,72
512,00	1124,62
513,00	1065,59
514,00	972,49
515,00	925,91
516,00	878,16
517,00	820,94
518,00	776,49
519,00	728,10
520,00	679,12
521,00	632,39
522,00	600,66
523,00	557,43
524,00	506,24
525,00	481,47
526,00	458,20
527,00	421,46
528,00	381,26
529,00	358,34
530,00	327,74
531,00	307,37
532,00	294,55
533,00	268,62
534,00	254,14
535,00	227,30
536,00	210,14
537,00	194,10
538,00	178,96
539,00	177,50
540,00	158,39
541,00	149,49
542,00	136,07
543,00	127,76
544,00	116,26
545,00	105,87
546,00	100,35
547,00	93,41
548,00	89,08
549,00	80,79
550,00	70,78
551,00	65,56
552,00	60,75
553,00	55,91
554,00	50,94
555,00	47,39
556,00	45,34
557,00	41,94
558,00	36,23
559,00	34,10
560,00	32,63
561,00	28,68
562,00	25,13
563,00	23,14
564,00	24,89
565,00	21,96
566,00	20,44
567,00	18,45
568,00	17,29
569,00	13,97
570,00	17,07
571,00	14,11
572,00	13,52
573,00	12,63
574,00	11,46
575,00	8,50
576,00	9,66
577,00	8,39
578,00	9,33
579,00	10,56
580,00	7,74
581,00	7,72
582,00	4,99
583,00	4,91
584,00	6,16
585,00	5,26
586,00	4,75
587,00	4,12
588,00	4,28
589,00	2,90
590,00	6,08
591,00	2,10
592,00	3,76
593,00	0,13
594,00	0,45
595,00	1,60
596,00	3,37
597,00	0,47
598,00	2,87
599,00	-0,72
600,00	1,90
601,00	0,39
602,00	2,54
603,00	0,70
604,00	1,39
605,00	2,14
606,00	0,99
607,00	-1,03
608,00	0,86
609,00	-0,11
610,00	-0,51
611,00	2,93
612,00	-1,86
613,00	-1,47
614,00	-0,45
615,00	0,35
616,00	-0,95
617,00	-1,56
618,00	-0,57
619,00	0,08
620,00	-0,06
621,00	-1,12
622,00	1,92
623,00	0,83
624,00	0,03
625,00	1,50
626,00	-1,01
627,00	0,33
628,00	-1,69
629,00	0,99
630,00	-0,69
631,00	-0,77
632,00	-0,36
633,00	-1,28
634,00	1,04
635,00	0,81
636,00	0,24
637,00	-1,79
638,00	0,90
639,00	-0,01
640,00	-2,66
641,00	-1,37
642,00	-0,56
643,00	-1,44
644,00	-0,70
645,00	1,48
646,00	-1,20
647,00	-0,58
648,00	-0,30
649,00	-0,84
650,00	-1,58
651,00	-2,70
652,00	-1,73
653,00	-1,34
654,00	-1,27
655,00	-1,52
656,00	-1,53
657,00	0,15
658,00	-2,32
659,00	-1,70
660,00	0,25
661,00	-1,22
662,00	-3,53
663,00	-0,06
664,00	-1,89
665,00	0,39
666,00	1,18
667,00	-0,37
668,00	0,19
669,00	-1,39
670,00	0,70
671,00	-0,02
672,00	-1,52
673,00	-1,31
674,00	-2,23
675,00	0,11
676,00	-1,52
677,00	-2,58
678,00	-1,46
679,00	-1,37
680,00	-2,46
681,00	-0,37
682,00	0,17
683,00	-1,64
684,00	-0,59
685,00	-1,50
686,00	0,02
687,00	-3,63
688,00	-0,94
689,00	-0,96
690,00	-0,98
691,00	-0,53
692,00	0,32
693,00	-0,77
694,00	-2,26
695,00	-1,90
696,00	0,76
697,00	-2,19
698,00	-3,06
699,00	-0,75
700,00	-1,09
701,00	-1,54
702,00	-2,30
703,00	-1,08
704,00	-1,20
705,00	-0,28
706,00	-0,20
707,00	-2,00
708,00	-1,96
709,00	-1,12
710,00	-2,04
711,00	0,28
712,00	-0,89
713,00	-1,99
714,00	-0,30
715,00	-1,48
716,00	-0,55
717,00	-0,37
718,00	-1,30
719,00	-0,54
720,00	-2,91
721,00	-1,86
722,00	0,11
723,00	-0,97
724,00	0,02
725,00	1,95
726,00	-0,96
727,00	-1,54
728,00	0,37
729,00	-0,99
730,00	0,54
731,00	-1,47
732,00	-1,58
733,00	-1,78
734,00	-0,84
735,00	-2,16
736,00	-1,49
737,00	-2,07
738,00	-1,96
739,00	-1,43
740,00	-3,05
741,00	-1,80
742,00	-2,70
743,00	-0,32
744,00	0,85
745,00	-1,59
746,00	1,46
747,00	0,68
748,00	-1,29
749,00	-0,04
750,00	-0,91
751,00	-1,26
752,00	-0,86
753,00	-2,01
754,00	-1,43
755,00	0,08
756,00	-2,02
757,00	-1,24
758,00	-1,60
759,00	-2,60
760,00	-0,78
761,00	-1,55
762,00	-1,35
763,00	-1,79
764,00	-2,16
765,00	-2,22
766,00	-0,63
767,00	-0,50
768,00	-0,90
769,00	-0,59
770,00	-1,13
771,00	-2,80
772,00	-1,00
773,00	0,63
774,00	0,01
775,00	-1,06
776,00	-0,88
777,00	-0,32
778,00	0,58
779,00	-0,85
780,00	-1,02
781,00	-1,88
782,00	-1,68
783,00	-2,72
784,00	-1,07
785,00	-0,51
786,00	0,85
787,00	0,66
788,00	-0,24
789,00	0,15
790,00	-1,14
791,00	-1,54
792,00	-2,85
793,00	-2,18
794,00	-0,61
795,00	1,42
796,00	-0,29
797,00	-1,47
798,00	-1,49
799,00	-0,85
800,00	0,25
801,00	-0,88
802,00	-0,47
803,00	-2,05
804,00	-1,60
805,00	-0,54
806,00	-3,60
807,00	-1,89
808,00	-1,00
809,00	-0,23
810,00	-0,16
811,00	-1,41
812,00	-0,56
813,00	-4,41
814,00	0,06
815,00	-2,34
816,00	-3,43
817,00	-2,11
818,00	-1,30
819,00	-0,59
820,00	-0,27
821,00	-1,16
822,00	0,64
823,00	-0,97
824,00	-2,74
825,00	-2,67
826,00	-1,40
827,00	-1,37
828,00	0,70
829,00	-1,58
830,00	-0,27
831,00	-1,38
832,00	-1,46
833,00	-1,10
834,00	-1,04
835,00	-1,87
836,00	-1,47
837,00	-1,25
838,00	-1,20
839,00	-3,82
840,00	-1,49
841,00	0,08
842,00	-2,05
843,00	-1,19
844,00	0,11
845,00	-1,72
846,00	-2,06
847,00	-0,33
848,00	-1,37
849,00	-0,91
850,00	-2,16
851,00	-1,82
852,00	-0,98
853,00	-2,45
854,00	-3,11
855,00	-1,82
856,00	1,01
857,00	-2,16
858,00	-0,94
859,00	0,11
860,00	0,09
861,00	-1,16
862,00	-1,83
863,00	0,36
864,00	-0,47
865,00	-0,92
866,00	-1,63
867,00	-1,88
868,00	0,33
869,00	-0,89
870,00	-2,13
871,00	-0,38
872,00	-2,55
873,00	-1,24
874,00	1,13
875,00	1,02
876,00	-2,13
877,00	-2,16
878,00	-2,56
879,00	-2,61
880,00	0,28
881,00	-1,17
882,00	-1,71
883,00	-1,16
884,00	-1,34
885,00	-1,90
886,00	0,12
887,00	1,92
888,00	-1,47
889,00	1,33
890,00	0,49
891,00	-2,18
892,00	-2,86
893,00	-2,29
894,00	-4,38
895,00	-2,97
896,00	-1,25
897,00	-1,90
898,00	-2,29
899,00	-0,59
900,00	-1,65
901,00	-3,59
902,00	-1,55
903,00	2,09
904,00	-1,23
905,00	-2,41
906,00	-3,50
907,00	-0,34
908,00	-2,83
909,00	-2,93
910,00	-1,92
911,00	-0,54
912,00	-2,74
913,00	-0,05
914,00	-1,45
915,00	1,22
916,00	-2,11
917,00	0,80
918,00	-2,47
919,00	-1,43
920,00	-1,65
921,00	1,64
922,00	-2,27
923,00	-2,87
924,00	-1,64
925,00	-1,14
926,00	-1,57
927,00	-0,92
928,00	-2,87
929,00	-0,20
930,00	-2,97
931,00	-1,92
932,00	-0,28
933,00	-0,85
934,00	-0,42
935,00	-2,68
936,00	-0,53
937,00	-2,09
938,00	-2,53
939,00	-0,82
940,00	-2,90
941,00	-3,09
942,00	1,89
943,00	-0,35
944,00	-1,92
945,00	-1,42
946,00	-2,14
947,00	-0,39
948,00	-0,21
949,00	-2,65
950,00	-2,00
951,00	-0,05
952,00	-1,24
953,00	-1,85
954,00	-1,73
955,00	-0,22
956,00	-0,83
957,00	-2,10
958,00	0,16
959,00	-2,75
960,00	-1,50
961,00	-1,04
962,00	-1,65
963,00	-0,51
964,00	-2,27
965,00	-1,13
966,00	-2,99
967,00	-1,92
968,00	-0,20
969,00	0,46
970,00	-2,48
971,00	-2,35
972,00	-0,88
973,00	-1,27
974,00	-1,01
975,00	-2,00
976,00	-3,18
977,00	-3,59
978,00	-3,35
979,00	-0,28
980,00	-0,80
981,00	-3,01
982,00	-1,55
983,00	1,22
984,00	-1,39
985,00	-1,90
986,00	-2,04
987,00	-2,34
988,00	-1,07
989,00	-0,65
990,00	0,27
991,00	-0,20
992,00	-2,10
993,00	-2,77
994,00	-1,08
995,00	-2,20
996,00	-0,93
997,00	-0,53
998,00	-1,31
999,00	-1,48
1000,00	-1,45
>>>>>End Processed Spectral Data<<<<<
